Folder: ISDN2603-IR-spectroscopy/converter_xlsx_FTIR

Note: README.md
# ISDN2603-Raman-spectroscopy
Raman spectroscopy CSV parsing and display

File: group1.xlsx-Silicone.csv
3996.36,0.002393
3982.86,0.002018
3969.36,0.002364
3955.85,0.002455
3942.35,0.002142
3928.85,0.001998
3915.35,0.001984
3901.85,0.002158
3888.35,0.002043
3874.85,0.002107
3861.35,0.002154
3847.84,0.001918
3834.34,0.002545
3820.84,0.002273
3807.34,0.002291
3793.84,0.002399
3780.34,0.002849
3766.84,0.003208
3753.34,0.003343
3739.83,0.002932
3726.33,0.003231
3712.83,0.003788
3699.33,0.003774
3685.83,0.003895
3672.33,0.004951
3658.83,0.005121
3645.33,0.00558
3631.83,0.006175
3618.32,0.006169
3604.82,0.006598
3591.32,0.006856
3577.82,0.00738
3564.32,0.008052
3550.82,0.008845
3537.32,0.00919
3523.82,0.009731
3510.31,0.009959
3496.81,0.010866
3483.31,0.011161
3469.81,0.011926
3456.31,0.012693
3442.81,0.013398
3429.31,0.013088
3415.81,0.013931
3402.3,0.013886
3388.8,0.014262
3375.3,0.014439
3361.8,0.014448
3348.3,0.014433
3334.8,0.0149
3321.3,0.015204
3307.8,0.015105
3294.29,0.015796
3280.79,0.015562
3267.29,0.015378
3253.79,0.014453
3240.29,0.014623
3226.79,0.013837
3213.29,0.013544
3199.79,0.013021
3186.29,0.013098
3172.78,0.012284
3159.28,0.01202
3145.78,0.011442
3132.28,0.011248
3118.78,0.011165
3105.28,0.011192
3091.78,0.010629
3078.28,0.010722
3064.77,0.010633
3051.27,0.01042
3037.77,0.010166
3024.27,0.009867
3010.77,0.010208
2997.27,0.011883
2983.77,0.018627
2970.27,0.060014
2956.76,0.069694
2943.26,0.021213
2929.76,0.01335
2916.26,0.014055
2902.76,0.018363
2889.26,0.011546
2875.76,0.009794
2862.26,0.008054
2848.75,0.007413
2835.25,0.007141
2821.75,0.006998
2808.25,0.007054
2794.75,0.006821
2781.25,0.005655
2767.75,0.004916
2754.25,0.004574
2740.75,0.004196
2727.24,0.004042
2713.74,0.003767
2700.24,0.003621
2686.74,0.003689
2673.24,0.003819
2659.74,0.003949
2646.24,0.003505
2632.74,0.002998
2619.23,0.003139
2605.73,0.002647
2592.23,0.002447
2578.73,0.002353
2565.23,0.002088
2551.73,0.002053
2538.23,0.002172
2524.73,0.00257
2511.22,0.002514
2497.72,0.002732
2484.22,0.001997
2470.72,0.002025
2457.22,0.001691
2443.72,0.001491
2430.22,0.001887
2416.72,0.001254
2403.22,0.00154
2389.71,0.001591
2376.21,0.001766
2362.71,0.002916
2349.21,0.00206
2335.71,0.002722
2322.21,0.002861
2308.71,0.001807
2295.21,0.001837
2281.7,0.00118
2268.2,0.00091
2254.7,0.000702
2241.2,0.000178
2227.7,-0.000273
2214.2,-4.2e-05
2200.7,-0.001127
2187.2,-0.000534
2173.69,-0.001007
2160.19,-0.002795
2146.69,-0.001374
2133.19,-0.001484
2119.69,-0.000851
2106.19,-0.001182
2092.69,-0.001481
2079.19,-0.000949
2065.68,-0.001907
2052.18,-0.002016
2038.68,-0.003183
2025.18,-0.00352
2011.68,-0.003456
1998.18,-0.003427
1984.68,-0.002775
1971.18,-0.003262
1957.68,-0.001182
1944.17,-0.000108
1930.67,0.000288
1917.17,0.000972
1903.67,0.001045
1890.17,0.001834
1876.67,0.001974
1863.17,0.002252
1849.67,0.00217
1836.16,0.002251
1822.66,0.002493
1809.16,0.00321
1795.66,0.003852
1782.16,0.004097
1768.66,0.004466
1755.16,0.004611
1741.66,0.005568
1728.15,0.006764
1714.65,0.006796
1701.15,0.008244
1687.65,0.011181
1674.15,0.014256
1660.65,0.018148
1647.15,0.021473
1633.65,0.021054
1620.15,0.019921
1606.64,0.018423
1593.14,0.017594
1579.64,0.016251
1566.14,0.015232
1552.64,0.016505
1539.14,0.016917
1525.64,0.015568
1512.14,0.014298
1498.63,0.0126
1485.13,0.0126
1471.63,0.01312
1458.13,0.015642
1444.63,0.020544
1431.13,0.018352
1417.63,0.031127
1404.13,0.031886
1390.62,0.021695
1377.12,0.016293
1363.62,0.015206
1350.12,0.014501
1336.62,0.014395
1323.12,0.01536
1309.62,0.017635
1296.12,0.021265
1282.61,0.030129
1269.11,0.096038
1255.61,0.348802
1242.11,0.103142
1228.61,0.093337
1215.11,0.097446
1201.61,0.102423
1188.11,0.108754
1174.61,0.117317
1161.1,0.126991
1147.6,0.138008
1134.1,0.156933
1120.6,0.196097
1107.1,0.287245
1093.6,0.427835
1080.1,0.521977
1066.6,0.5429
1053.09,0.538733
1039.59,0.549829
1026.09,0.614262
1012.59,0.793454
999.089,0.766833
985.588,0.473145
972.087,0.272372
958.586,0.175193
945.085,0.118566
931.583,0.085809
918.082,0.071862
904.581,0.070525
891.08,0.083098
877.579,0.136262
864.077,0.173938
850.576,0.140744
837.075,0.145556
823.574,0.244201
810.073,0.416008
796.571,0.71091
783.07,0.885416
769.569,0.627829
756.068,0.395473
742.566,0.273251
729.065,0.20114
715.564,0.173739
702.063,0.241095
688.562,0.241379
675.06,0.217978
661.559,0.230409
648.058,0.128444
634.5568,0.113623
621.056,0.110263
607.554,0.107373
594.053,0.108692
580.552,0.113494
567.051,0.120241
553.55,0.125607
540.048,0.127981
526.547,0.130888
513.046,0.142353
499.545,0.180476
486.044,0.263386
472.542,0.360464
459.041,0.383466
445.54,0.324701
432.039,0.240795
418.537,0.20774
405.036,0.358305
399.25,0.413508

File: group1.xlsx-SLAResin.csv
3996.36,0.006753
3982.86,0.006825
3969.36,0.007294
3955.85,0.006869
3942.35,0.00685
3928.85,0.006903
3915.35,0.006955
3901.85,0.006476
3888.35,0.006994
3874.85,0.006717
3861.35,0.006648
3847.84,0.006357
3834.34,0.00671
3820.84,0.006628
3807.34,0.006678
3793.84,0.00632
3780.34,0.006735
3766.84,0.00622
3753.34,0.006738
3739.83,0.00627
3726.33,0.006222
3712.83,0.006483
3699.33,0.006059
3685.83,0.006085
3672.33,0.006409
3658.83,0.006441
3645.33,0.006755
3631.83,0.007144
3618.32,0.00768
3604.82,0.007838
3591.32,0.008416
3577.82,0.008423
3564.32,0.009246
3550.82,0.009836
3537.32,0.010084
3523.82,0.010275
3510.31,0.010495
3496.81,0.010924
3483.31,0.011452
3469.81,0.01187
3456.31,0.012583
3442.81,0.013507
3429.31,0.014052
3415.81,0.015561
3402.3,0.017263
3388.8,0.019371
3375.3,0.020148
3361.8,0.020318
3348.3,0.019465
3334.8,0.019743
3321.3,0.019385
3307.8,0.018368
3294.29,0.016955
3280.79,0.015875
3267.29,0.014351
3253.79,0.013291
3240.29,0.012704
3226.79,0.011616
3213.29,0.0111
3199.79,0.010889
3186.29,0.010606
3172.78,0.010129
3159.28,0.009953
3145.78,0.009765
3132.28,0.009766
3118.78,0.009387
3105.28,0.009636
3091.78,0.009768
3078.28,0.009966
3064.77,0.010478
3051.27,0.010067
3037.77,0.009909
3024.27,0.010303
3010.77,0.011679
2997.27,0.013994
2983.77,0.017555
2970.27,0.023629
2956.76,0.032293
2943.26,0.032253
2929.76,0.034477
2916.26,0.032948
2902.76,0.027834
2889.26,0.024621
2875.76,0.024151
2862.26,0.024215
2848.75,0.022873
2835.25,0.015518
2821.75,0.012898
2808.25,0.012037
2794.75,0.011609
2781.25,0.010985
2767.75,0.010626
2754.25,0.010426
2740.75,0.010391
2727.24,0.010133
2713.74,0.010036
2700.24,0.009657
2686.74,0.009577
2673.24,0.00965
2659.74,0.009375
2646.24,0.009231
2632.74,0.008638
2619.23,0.008311
2605.73,0.008179
2592.23,0.007753
2578.73,0.007948
2565.23,0.007696
2551.73,0.007493
2538.23,0.007305
2524.73,0.007234
2511.22,0.007624
2497.72,0.007126
2484.22,0.007377
2470.72,0.007175
2457.22,0.006994
2443.72,0.006895
2430.22,0.007132
2416.72,0.006811
2403.22,0.006897
2389.71,0.007077
2376.21,0.007312
2362.71,0.008089
2349.21,0.007803
2335.71,0.008079
2322.21,0.008009
2308.71,0.007118
2295.21,0.006707
2281.7,0.006028
2268.2,0.005965
2254.7,0.005118
2241.2,0.00444
2227.7,0.003856
2214.2,0.004455
2200.7,0.003474
2187.2,0.003496
2173.69,0.003187
2160.19,0.001927
2146.69,0.002518
2133.19,0.00418
2119.69,0.004578
2106.19,0.003741
2092.69,0.004183
2079.19,0.004595
2065.68,0.00414
2052.18,0.00365
2038.68,0.002866
2025.18,0.002133
2011.68,0.002593
1998.18,0.00275
1984.68,0.002548
1971.18,0.002108
1957.68,0.003498
1944.17,0.003537
1930.67,0.003902
1917.17,0.004743
1903.67,0.005091
1890.17,0.005317
1876.67,0.005405
1863.17,0.005442
1849.67,0.005769
1836.16,0.005578
1822.66,0.006077
1809.16,0.006543
1795.66,0.006969
1782.16,0.007358
1768.66,0.008518
1755.16,0.013027
1741.66,0.029986
1728.15,0.05677
1714.65,0.072791
1701.15,0.084015
1687.65,0.073722
1674.15,0.044353
1660.65,0.031589
1647.15,0.027126
1633.65,0.027147
1620.15,0.021642
1606.64,0.018462
1593.14,0.017277
1579.64,0.017597
1566.14,0.023304
1552.64,0.037452
1539.14,0.052237
1525.64,0.056236
1512.14,0.044199
1498.63,0.028609
1485.13,0.031211
1471.63,0.037456
1458.13,0.044338
1444.63,0.043919
1431.13,0.033969
1417.63,0.028931
1404.13,0.029988
1390.62,0.032597
1377.12,0.034281
1363.62,0.033487
1350.12,0.027464
1336.62,0.029342
1323.12,0.034485
1309.62,0.035997
1296.12,0.042382
1282.61,0.044736
1269.11,0.056774
1255.61,0.069116
1242.11,0.079075
1228.61,0.073594
1215.11,0.054344
1201.61,0.049872
1188.11,0.057645
1174.61,0.072781
1161.1,0.083115
1147.6,0.088124
1134.1,0.090461
1120.6,0.083261
1107.1,0.076628
1093.6,0.06763
1080.1,0.060377
1066.6,0.059425
1053.09,0.067796
1039.59,0.065121
1026.09,0.058347
1012.59,0.051235
999.089,0.051309
985.588,0.051341
972.087,0.051056
958.586,0.053962
945.085,0.055908
931.583,0.051031
918.082,0.044517
904.581,0.038914
891.08,0.040068
877.579,0.041833
864.077,0.040194
850.576,0.038668
837.075,0.035499
823.574,0.034929
810.073,0.037728
796.571,0.031361
783.07,0.038798
769.569,0.047262
756.068,0.03976
742.566,0.041473
729.065,0.037955
715.564,0.039413
702.063,0.041326
688.562,0.042163
675.06,0.043367
661.559,0.048366
648.058,0.052239
634.5568,0.052888
621.056,0.054445
607.554,0.056107
594.053,0.057235
580.552,0.056444
567.051,0.057598
553.55,0.056666
540.048,0.055576
526.547,0.057804
513.046,0.059148
499.545,0.057861
486.044,0.059668
472.542,0.062543
459.041,0.062286
445.54,0.058647
432.039,0.057705
418.537,0.054426
405.036,0.05484
399.25,0.058907

File: group2.xlsx-GIgi nylon8.csv
3996.36,0.105818,Unnamed: 2,Unnamed: 3,Unnamed: 4,Unnamed: 5,Unnamed: 6
3994.43,0.105396,,,,,
3992.5,0.105251,,,,,
3990.57,0.105295,,,,,
3988.64,0.105344,,,,,
3986.714,0.105281,,,,,
3984.79,0.105087,,,,,
3982.86,0.105059,,,,,
3980.93,0.105337,,,,,
3979,0.105574,,,,,
3977.07,0.105545,,,,,
3975.14,0.105407,,,,,
3973.21,0.105353,,,,,
3971.28,0.105408,,,,,
3969.36,0.105462,,,,,
3967.43,0.105402,,,,,
3965.5,0.105342,,,,,
3963.57,0.105397,,,,,
3961.64,0.105325,,,,,
3959.71,0.105097,,,,,
3957.78,0.104982,,,,,
3955.85,0.104939,,,,,
3953.93,0.104885,,,,,
3952,0.104784,,,,,
3950.07,0.104609,,,,,
3948.14,0.104541,,,,,
3946.21,0.1046,,,,,
3944.28,0.104688,,,,,
3942.35,0.104853,,,,,
3940.42,0.105114,,,,,
3938.5,0.105293,,,,,
3936.57,0.105121,,,,,
3934.64,0.104718,,,,,
3932.71,0.104408,,,,,
3930.78,0.104202,,,,,
3928.85,0.104142,,,,,
3926.92,0.10431,,,,,
3924.99,0.104496,,,,,
3923.07,0.104547,,,,,
3921.14,0.104473,,,,,
3919.21,0.104358,,,,,
3917.28,0.104437,,,,,
3915.35,0.104688,,,,,
3913.42,0.104819,,,,,
3911.49,0.104805,,,,,
3909.56,0.104783,,,,,red = nylon8
3907.64,0.104759,,,,,
3894.13,0.104212,,,,,
3880.63,0.10419,,,,,
3867.13,0.103955,,,,,
3853.63,0.104241,,,,,
3840.13,0.103665,,,,,
3826.63,0.103488,,,,,
3813.13,0.103318,,,,,
3799.63,0.103068,,,,,
3786.12,0.102674,,,,,
3772.62,0.102522,,,,,
3759.12,0.102472,,,,,
3745.62,0.102151,,,,,
3732.12,0.10176,,,,,
3718.62,0.101276,,,,,
3705.12,0.100611,,,,,
3691.62,0.1005,,,,,
3678.11,0.099556,,,,,
3664.61,0.099511,,,,,
3651.11,0.098554,,,,,
3637.61,0.099002,,,,,
3624.11,0.097778,,,,,
3610.61,0.098177,,,,,
3597.11,0.097778,,,,,
3583.61,0.097097,,,,,
3570.11,0.096497,,,,,
3556.6,0.095658,,,,,
3543.1,0.095352,,,,,
3529.6,0.095119,,,,,
3516.1,0.095256,,,,,
3502.6,0.094813,,,,,
3489.1,0.094309,,,,,
3475.6,0.093189,,,,,
3462.1,0.092336,,,,,
3448.59,0.091257,,,,,
3435.09,0.090755,,,,,
3421.59,0.091256,,,,,
3408.09,0.091811,,,,,
3394.59,0.0923,,,,,
3381.09,0.092501,,,,,
3367.59,0.093002,,,,,
3354.09,0.092249,,,,,
3340.58,0.092526,,,,,
3327.08,0.091489,,,,,
3313.58,0.090977,,,,,
3300.08,0.091074,,,,,
3286.58,0.091634,,,,,
3273.08,0.092284,,,,,
3259.58,0.093429,,,,,
3246.08,0.093651,,,,,
3232.58,0.093924,,,,,
3219.07,0.093802,,,,,
3205.57,0.093648,,,,,
3192.07,0.093589,,,,,
3178.57,0.093933,,,,,
3165.07,0.093902,,,,,
3151.57,0.094097,,,,,
3138.07,0.094632,,,,,
3124.57,0.094286,,,,,
3111.06,0.094622,,,,,
3097.56,0.094,,,,,
3084.06,0.093512,,,,,
3070.56,0.092049,,,,,
3057.06,0.093081,,,,,
3043.56,0.093541,,,,,
3030.06,0.093149,,,,,
3016.56,0.093115,,,,,
3003.05,0.090063,,,,,
2989.55,0.081976,,,,,
2976.05,0.055545,,,,,
2962.55,0.005232,,,,,
2949.05,0.027299,,,,,
2935.55,0.025478,,,,,
2922.05,0.032888,,,,,
2908.55,0.038967,,,,,
2895.04,0.055048,,,,,
2881.54,0.059102,,,,,
2868.04,0.049312,,,,,
2854.54,0.066901,,,,,
2841.04,0.07472,,,,,
2827.54,0.082473,,,,,
2814.04,0.084408,,,,,
2800.54,0.0871,,,,,
2787.04,0.088676,,,,,
2773.53,0.089219,,,,,
2760.03,0.089593,,,,,
2746.53,0.089764,,,,,
2733.03,0.089617,,,,,
2719.53,0.090865,,,,,
2706.03,0.09129,,,,,
2692.53,0.091318,,,,,
2679.03,0.091639,,,,,
2665.52,0.091621,,,,,
2652.02,0.091191,,,,,
2638.52,0.090095,,,,,
2625.02,0.088373,,,,,
2611.52,0.086292,,,,,
2598.02,0.084392,,,,,
2584.52,0.083132,,,,,
2571.02,0.081811,,,,,
2557.51,0.080892,,,,,
2544.01,0.080226,,,,,
2530.51,0.079385,,,,,
2517.01,0.078827,,,,,
2503.51,0.07884,,,,,
2490.01,0.08025,,,,,
2476.51,0.08052,,,,,
2463.01,0.081439,,,,,
2449.5,0.080779,,,,,
2436,0.081102,,,,,
2422.5,0.081859,,,,,
2409,0.082366,,,,,
2395.5,0.084096,,,,,
2382,0.085554,,,,,
2368.5,0.088538,,,,,
2355,0.089996,,,,,
2341.5,0.09045,,,,,
2327.99,0.090665,,,,,
2314.49,0.086037,,,,,
2300.99,0.081879,,,,,
2287.49,0.075954,,,,,
2273.99,0.068403,,,,,
2260.49,0.063457,,,,,
2246.99,0.058192,,,,,
2233.49,0.052771,,,,,
2219.98,0.050186,,,,,
2206.48,0.044371,,,,,
2192.98,0.039682,,,,,
2179.48,0.036003,,,,,
2165.98,0.03181,,,,,
2152.48,0.034161,,,,,
2138.98,0.045196,,,,,
2125.48,0.057581,,,,,
2111.97,0.05991,,,,,
2098.47,0.057054,,,,,
2084.97,0.057978,,,,,
2071.47,0.052806,,,,,
2057.97,0.047521,,,,,
2044.47,0.036967,,,,,
2030.97,0.030646,,,,,
2017.47,0.030323,,,,,
2003.97,0.034224,,,,,
1990.46,0.036637,,,,,
1976.96,0.030676,,,,,
1963.46,0.036957,,,,,
1949.96,0.046525,,,,,
1936.46,0.055011,,,,,
1922.96,0.063397,,,,,
1909.46,0.068482,,,,,
1895.96,0.072838,,,,,
1882.45,0.077012,,,,,
1868.95,0.080018,,,,,
1855.45,0.083119,,,,,
1841.95,0.086311,,,,,
1828.45,0.089383,,,,,
1814.95,0.093171,,,,,
1801.45,0.094129,,,,,
1787.95,0.09641,,,,,
1774.44,0.097149,,,,,
1760.94,0.094481,,,,,
1747.44,0.063098,,,,,
1733.94,-0.083101,,,,,
1720.44,-0.225193,,,,,
1706.94,-0.068525,,,,,
1693.44,0.035304,,,,,
1679.94,0.053637,,,,,
1666.43,0.068356,,,,,
1652.93,0.07557,,,,,
1639.43,0.078077,,,,,
1625.93,0.081597,,,,,
1612.43,0.085189,,,,,
1598.93,0.065525,,,,,
1585.43,0.078213,,,,,
1571.93,0.08247,,,,,
1558.43,0.087819,,,,,
1544.92,0.081504,,,,,
1531.42,0.078006,,,,,
1517.92,0.075539,,,,,
1504.42,0.068037,,,,,
1490.92,0.045364,,,,,
1477.42,0.027148,,,,,
1463.92,-0.016969,,,,,
1450.42,-0.026497,,,,,
1436.91,-0.042706,,,,,
1423.41,-0.063987,,,,,
1409.91,-0.029444,,,,,
1396.41,-0.008023,,,,,
1382.91,-0.023917,,,,,
1369.41,0.013607,,,,,
1355.91,0.021932,,,,,
1342.41,0.032047,,,,,
1328.9,0.012341,,,,,
1315.4,0.021493,,,,,
1301.9,-0.052121,,,,,
1288.4,-0.227323,,,,,
1274.9,-0.282648,,,,,
1261.4,-0.258361,,,,,
1247.9,-0.211731,,,,,
1234.4,-0.116337,,,,,
1220.89,-0.031903,,,,,
1207.39,0.000701,,,,,
1193.89,0.007134,,,,,
1180.39,0.029019,,,,,
1166.89,0.024132,,,,,
1153.39,0.00575,,,,,
1139.89,-0.08225,,,,,
1126.39,-0.148259,,,,,
1112.89,-0.125293,,,,,
1099.38,-0.013918,,,,,
1085.88,0.001393,,,,,
1072.38,-0.186179,,,,,
1058.88,-0.056766,,,,,
1045.38,0.001662,,,,,
1031.88,0.007289,,,,,
1018.38,0.020441,,,,,
1004.88,0.035111,,,,,
991.374,0.02426,,,,,
977.873,0.022663,,,,,
964.372,-0.03003,,,,,
950.871,-0.018203,,,,,
937.37,-0.021489,,,,,
923.868,0.01803,,,,,
910.367,0.042364,,,,,
896.866,0.05388,,,,,
883.365,0.032515,,,,,
869.864,-0.020293,,,,,
856.362,0.030987,,,,,
842.861,0.023737,,,,,
829.36,0.041285,,,,,
815.859,0.067858,,,,,
802.358,0.060495,,,,,
788.856,0.045986,,,,,
775.355,0.048149,,,,,
761.854,0.052335,,,,,
748.3527,-0.046513,,,,,
734.851,-0.06334,,,,,
721.35,0.045188,,,,,
707.849,-0.018101,,,,,
694.348,-0.022304,,,,,
680.847,0.004337,,,,,
667.345,0.0342,,,,,
653.844,0.020648,,,,,
640.343,-0.016156,,,,,
626.842,-0.023208,,,,,
613.341,-0.048865,,,,,
599.839,-0.009392,,,,,
586.338,0.043331,,,,,
572.837,0.041959,,,,,
559.336,0.053609,,,,,
545.835,0.066151,,,,,
532.333,0.071751,,,,,
518.832,0.077572,,,,,
505.331,0.068822,,,,,
491.83,0.070134,,,,,
478.329,0.075484,,,,,
464.827,0.0766,,,,,
451.326,0.071595,,,,,
437.825,0.067398,,,,,
424.324,0.061758,,,,,
410.822,0.055208,,,,,
399.25,0.050832,,,,,