Folder: ISDN2603-IR-spectroscopy/RAMAN_DATA/Group1

Note: README.md
# ISDN2603-Raman-spectroscopy
Raman spectroscopy CSV parsing and display

File: SLAresin.csv
Created as New Dataset,
Raman Shift / cm-1,INT
3200.00,74
3189.00,145
3178.00,2
3167.00,228
3156.00,70
3145.00,74
3134.00,23
3123.00,48
3112.00,-25
3101.00,-12
3090.00,126
3079.00,20
3068.00,91
3057.00,-43
3046.00,90
3035.00,139
3024.00,108
3013.00,342
3002.00,162
2991.00,202
2980.00,122
2969.00,275
2958.00,285
2947.00,276
2936.00,288
2925.00,268
2914.00,212
2903.00,159
2892.00,188
2881.00,76
2870.00,170
2859.00,117
2848.00,125
2837.00,57
2826.00,26
2815.00,101
2804.00,29
2793.00,79
2782.00,95
2771.00,38
2760.00,52
2749.00,-2
2738.00,52
2727.00,10
2716.00,61
2705.00,47
2694.00,67
2683.00,45
2672.00,18
2661.00,50
2650.00,31
2639.00,23
2628.00,30
2617.00,12
2606.00,55
2595.00,30
2584.00,-4
2573.00,22
2562.00,26
2551.00,24
2540.00,22
2529.00,53
2518.00,13
2507.00,18
2496.00,28
2485.00,30
2474.00,29
2463.00,4
2452.00,14
2441.00,11
2430.00,4
2419.00,-3
2408.00,-1
2397.00,5
2386.00,11
2375.00,25
2364.00,16
2353.00,-2
2342.00,9
2331.00,8
2320.00,7
2309.00,2
2298.00,22
2287.00,17
2276.00,-5
2265.00,-3
2254.00,12
2243.00,9
2232.00,5
2221.00,28
2210.00,-3
2199.00,-9
2188.00,-5
2177.00,-5
2166.00,-5
2155.00,-6
2144.00,-17
2133.00,-5
2122.00,-11
2111.00,0
2100.00,1
2089.00,-1
2078.00,-3
2067.00,-1
2056.00,-9
2045.00,-5
2034.00,8
2023.00,-1
2012.00,-5
2001.00,3
1990.00,2
1979.00,-6
1968.00,20
1957.00,16
1946.00,18
1935.00,15
1924.00,27
1913.00,24
1902.00,25
1891.00,32
1880.00,32
1869.00,29
1858.00,34
1847.00,35
1836.00,35
1825.00,39
1814.00,40
1803.00,34
1792.00,21
1781.00,26
1770.00,36
1759.00,33
1748.00,34
1737.00,39
1726.00,55
1715.00,59
1704.00,57
1693.00,54
1682.00,48
1671.00,45
1660.00,53
1649.00,61
1638.00,67
1627.00,62
1616.00,56
1605.00,57
1594.00,62
1583.00,57
1572.00,69
1561.00,68
1550.00,66
1539.00,61
1528.00,67
1517.00,66
1506.00,79
1495.00,79
1484.00,99
1473.00,105
1462.00,112
1451.00,140
1440.00,130
1429.00,110
1418.00,110
1407.00,121
1396.00,132
1385.00,124
1374.00,125
1363.00,120
1352.00,104
1341.00,96
1330.00,95
1319.00,85
1308.00,81
1297.00,76
1286.00,67
1275.00,55
1264.00,46
1253.00,44
1242.00,45
1231.00,35
1220.00,33
1209.00,32
1198.00,29
1187.00,21
1176.00,18
1165.00,13
1154.00,15
1143.00,20
1132.00,20
1121.00,20
1110.00,10
1099.00,5
1088.00,2
1077.00,-4
1066.00,-4
1055.00,-3
1044.00,-4
1033.00,-1
1022.00,-2
1011.00,-1
1000.00,5
989.00,6
978.00,9
967.00,11
956.00,10
945.00,3
934.00,3
923.00,6
912.00,7
901.00,6
890.00,14
879.00,16
868.00,19
857.00,15
846.00,14
835.00,12
824.00,7
813.00,2
802.00,1
791.00,-1
780.00,-2
769.00,4
758.00,1
747.00,1
736.00,-4
725.00,-8
714.00,-10
703.00,-3
692.00,-2
681.00,-2
670.00,-4
659.00,-6
648.00,0
637.00,2
626.00,3
615.00,7
604.00,17
593.00,21
582.00,13
571.00,10
560.00,9
549.00,6
538.00,5
527.00,3
516.00,4
505.00,7
494.00,10
483.00,12
472.00,11
461.00,14
450.00,14
439.00,12
428.00,12
417.00,14
406.00,19
395.00,17
384.00,19
373.00,19
362.00,16
351.00,14
340.00,18
329.00,18
318.00,16
307.00,13
296.00,19
285.00,20
274.00,16
263.00,14
252.00,15
241.00,15
230.00,14
219.00,12
208.00,8
197.00,7
186.00,4
175.00,2
164.00,3
153.00,2
142.00,8
131.00,27
120.00,44
109.00,58
100.00,67